Model:D062S SN:G119960CD1321112
Voltage:5.900V Current:1.6421A
Distance:0.500m  Uint:W/nm
380	0.0368
381	0.0385
382	0.0387
383	0.0397
384	0.0411
385	0.0423
386	0.0446
387	0.0449
388	0.0459
389	0.0477
390	0.0486
391	0.0496
392	0.0512
393	0.0522
394	0.053
395	0.0548
396	0.0563
397	0.0573
398	0.0585
399	0.0603
400	0.062
401	0.0634
402	0.0637
403	0.0656
404	0.0676
405	0.0683
406	0.0697
407	0.0712
408	0.0725
409	0.0744
410	0.075
411	0.0772
412	0.078
413	0.0801
414	0.0817
415	0.0827
416	0.0846
417	0.0859
418	0.0872
419	0.0889
420	0.0906
421	0.0912
422	0.0928
423	0.0948
424	0.0965
425	0.0977
426	0.0998
427	0.1009
428	0.1029
429	0.1042
430	0.1055
431	0.1077
432	0.1088
433	0.1107
434	0.1116
435	0.1141
436	0.1154
437	0.1175
438	0.119
439	0.1208
440	0.1228
441	0.1239
442	0.1259
443	0.1278
444	0.1293
445	0.1312
446	0.1331
447	0.1346
448	0.1363
449	0.1382
450	0.1399
451	0.1413
452	0.1438
453	0.1456
454	0.1476
455	0.1496
456	0.1514
457	0.1531
458	0.1557
459	0.1566
460	0.159
461	0.1613
462	0.1629
463	0.166
464	0.1668
465	0.1694
466	0.171
467	0.173
468	0.1753
469	0.1772
470	0.1794
471	0.1812
472	0.1832
473	0.1859
474	0.1879
475	0.1896
476	0.1919
477	0.1939
478	0.1959
479	0.1982
480	0.2012
481	0.2024
482	0.2046
483	0.2072
484	0.2091
485	0.2117
486	0.2139
487	0.2163
488	0.2185
489	0.2208
490	0.2228
491	0.2256
492	0.228
493	0.2299
494	0.2326
495	0.2351
496	0.2373
497	0.2397
498	0.2421
499	0.2442
500	0.2469
501	0.2495
502	0.2515
503	0.2543
504	0.2567
505	0.2592
506	0.2617
507	0.2639
508	0.2659
509	0.2692
510	0.2716
511	0.2741
512	0.2768
513	0.2795
514	0.2817
515	0.2842
516	0.2871
517	0.2899
518	0.2922
519	0.295
520	0.2976
521	0.3002
522	0.3032
523	0.3058
524	0.3084
525	0.311
526	0.3133
527	0.3162
528	0.319
529	0.3214
530	0.3246
531	0.327
532	0.33
533	0.3327
534	0.3358
535	0.3387
536	0.3414
537	0.3439
538	0.3467
539	0.3497
540	0.3525
541	0.3552
542	0.3579
543	0.3606
544	0.3634
545	0.3664
546	0.3695
547	0.3723
548	0.375
549	0.3787
550	0.3812
551	0.3843
552	0.3866
553	0.3901
554	0.3928
555	0.3955
556	0.3982
557	0.4015
558	0.404
559	0.4076
560	0.4107
561	0.4132
562	0.4166
563	0.4193
564	0.4222
565	0.4248
566	0.4275
567	0.4312
568	0.4341
569	0.437
570	0.4399
571	0.4425
572	0.4462
573	0.4493
574	0.4517
575	0.4556
576	0.4581
577	0.4617
578	0.4637
579	0.4668
580	0.4694
581	0.473
582	0.4764
583	0.4791
584	0.4819
585	0.4849
586	0.4881
587	0.4912
588	0.4943
589	0.4974
590	0.4999
591	0.5031
592	0.5066
593	0.5091
594	0.512
595	0.5156
596	0.5184
597	0.5212
598	0.5245
599	0.5278
600	0.531
601	0.5338
602	0.5365
603	0.5392
604	0.5425
605	0.5459
606	0.5485
607	0.5519
608	0.5549
609	0.5579
610	0.5602
611	0.5636
612	0.5668
613	0.5692
614	0.573
615	0.5763
616	0.5792
617	0.5821
618	0.5849
619	0.588
620	0.5912
621	0.5932
622	0.597
623	0.6
624	0.6028
625	0.6058
626	0.6088
627	0.6117
628	0.6142
629	0.6171
630	0.6207
631	0.6236
632	0.6263
633	0.63
634	0.6327
635	0.6355
636	0.6389
637	0.642
638	0.6442
639	0.6469
640	0.6501
641	0.6533
642	0.6564
643	0.6595
644	0.662
645	0.665
646	0.6681
647	0.6705
648	0.6738
649	0.6768
650	0.6796
651	0.6824
652	0.6858
653	0.6889
654	0.6914
655	0.6941
656	0.6973
657	0.7001
658	0.702
659	0.7054
660	0.7077
661	0.7109
662	0.7138
663	0.7173
664	0.7199
665	0.7225
666	0.7245
667	0.7282
668	0.7314
669	0.7342
670	0.7366
671	0.7389
672	0.7424
673	0.7448
674	0.748
675	0.7503
676	0.7528
677	0.756
678	0.7586
679	0.7616
680	0.7641
681	0.7667
682	0.7698
683	0.7732
684	0.7749
685	0.7781
686	0.7805
687	0.7838
688	0.7861
689	0.7885
690	0.7911
691	0.7941
692	0.7973
693	0.8001
694	0.8023
695	0.8045
696	0.807
697	0.8099
698	0.8124
699	0.816
700	0.818
701	0.8213
702	0.8237
703	0.8261
704	0.8286
705	0.831
706	0.8328
707	0.8351
708	0.8385
709	0.8412
710	0.8435
711	0.8457
712	0.8488
713	0.8516
714	0.8542
715	0.8559
716	0.8585
717	0.8608
718	0.863
719	0.8669
720	0.8687
721	0.8703
722	0.8734
723	0.8756
724	0.878
725	0.8802
726	0.8828
727	0.8859
728	0.8878
729	0.8898
730	0.8925
731	0.8958
732	0.8973
733	0.8986
734	0.9017
735	0.9043
736	0.9057
737	0.9095
738	0.9111
739	0.9144
740	0.9159
741	0.9189
742	0.9219
743	0.9233
744	0.9251
745	0.9282
746	0.9293
747	0.9323
748	0.9343
749	0.9362
750	0.939
751	0.9407
752	0.9425
753	0.9454
754	0.9474
755	0.9495
756	0.952
757	0.9538
758	0.9553
759	0.9575
760	0.9595
761	0.9624
762	0.9642
763	0.9665
764	0.9683
765	0.9706
766	0.9719
767	0.9753
768	0.9771
769	0.979
770	0.9812
771	0.9827
772	0.9849
773	0.9868
774	0.9889
775	0.9912
776	0.9932
777	0.9954
778	0.997
779	0.9985
780	1
-1 -1